Data Set,Variable,Label,Type,Length,Format,Codelist Name,Origin,Derivation / Comments / Predecessor,Notes,XL Comments
ADBASE,STUDYID,Study Identifier,Char,20,$20.,,Predecessor,ADSL.STUDYID,,"ML 3/30/2023: Include only cancer history related PARAMs in ADCH and add a new dataset ADBASE dataset like 303 which will contain all the baseline characteristics.
MS 4/3/2023: Ok. Please confirm ADBASE to be added outside of IDMC scope"
ADBASE,USUBJID,Unique Subject Identifier,Char,16,$16.,,Predecessor,ADSL.USUBJID,,
,ADSL_CORE,ADSL core variables are carried through all ADaM Datasets. See Core Variable column on the ADSL specs for variables kept on all ADaM datasets,,,,,,,,
ADBASE,ASEQ,Analysis Sequence Number,Num,8,best20.,,Derived,"After sorting dataset by the KEYS, set to 1 for the first record per subject, then incremented by 1 for each subsequent record.",,ML 2/7/25: Current ADBASE is filtering only records with ITTFL= 'Y'. This should be updated.
ADBASE,CDSEQ,Sequence Number,Num,8,best20.,,Predecessor,CD.CDSEQ,,
ADBASE,SRCDOM,Source Data,Char,8,$8.,,Assigned,"Set to the name of the dataset from which AVAL or AVALC is sourced.
For all PARAMCD set to ""CD""",,
ADBASE,SRCVAR,Source Variable,Char,8,$8.,,Assigned,"Set to the name of the variable from which AVAL or AVALC is sourced. 
",,
ADBASE,SRCSEQ,Source Sequence Number,Num,8,best20.,,Assigned,Set to the sequence number of the record from which AVAL or AVALC is sourced.,,
ADBASE,PARAMN,Parameter (N),Num,8,best20.,PARBASE_N,Assigned,"Assigned based on PARAMCD, as per the codelist",,
ADBASE,PARAMCD,Parameter Code,Char,8,$8.,PARBASE,Assigned,Assigned as per VLM,,
ADBASE,PARAM,Parameter,Char,100,$100.,PARBASE_C,Assigned,"Assigned as the decoded version of PARAMCD, as per the codelist",,
ADBASE,AVAL,Analysis Value,Num,8,best20.,,Derived,See VLM for details.,,
ADBASE,AVALC,Analysis Value (C),Char,200,$200.,,Derived,See VLM for details.,,
ADBASE,AVALCAT1,Analysis Value Category 1,Char,50,$50.,,Assigned,See VLM for details.,,
ADBASE,ADT,Analysis Date,Num,8,date9.,,Derived,"If AVALC contains a complete date, then ADT is set to the value of that date, as a SAS numeric date variable.
For parameters derived from other date parameters, retain ADT from the source record.",,
ADBASE,ADTF,Analysis Date Imputation Flag,Char,1,$1.,,Derived,"Where PARAMCD='CHDTC'
Set based on imputations in ADT:
M if month and day are imputed
D if ony day is imputed
null if DIAGDT equals CD.CDDTC date part",,
ADBASE,ADY,Analysis Relative Day,Num,8,best20.,,Derived,"Where ADSL.STAGE=EXPANSION:
If ADT < ADSL.RANDDT then calculated as (ADT - RANDDT). 
If ADT >= ADSL.RANDDT then calculated as (ADT - RANDDT + 1).
Null if ADSL.RANDDT is null.

Where ADSL.STAGE=ESCALATION:
If ADT < ADSL.TRTSDT then calculated as (ADT - TRTSDT). 
If ADT >= ADSL.TRTSDT then calculated as (ADT - TRTSDT + 1).
Null if ADSL.TRTSDT is null.",,
ADBASE,CDSTRESC,Character Result/Finding in Std Format,Char,200,$200.,,Predecessor,"For records directly from CD domain, set to CD.CDSTRESC",,
ADBASE,DTYPE,Derivation Type,Char,7,$7.,,Assigned,"For records created because a subject is in ADSL, but is missing the expected record in CD domain, set to ""PHANTOM"".",,
,,,,,,,,,,
,,,,,,,,,,
,,,,,,,,,,
,,,,,,,,,,
,,,,,,,,,,
,,,,,,,,,,
,,,,,,,,,,
,,,,,,,,,,
,,,,,,,,,,
,,,,,,,,,,
,,,,,,,,,,
,,,,,,,,,,
,,,,,,,,,,
,,,,,,,,,,
,,,,,,,,,,
,,,,,,,,,,
,,,,,,,,,,
,,,,,,,,,,
,,,,,,,,,,
,,,,,,,,,,
,,,,,,,,,,
,,,,,,,,,,
,,,,,,,,,,
,,,,,,,,,,
,,,,,,,,,,
,,,,,,,,,,
,,,,,,,,,,
,,,,,,,,,,
,,,,,,,,,,
,,,,,,,,,,
,,,,,,,,,,
,,,,,,,,,,
,,,,,,,,,,
,,,,,,,,,,
,,,,,,,,,,
,,,,,,,,,,
,,,,,,,,,,
,,,,,,,,,,
,,,,,,,,,,
,,,,,,,,,,
,,,,,,,,,,
,,,,,,,,,,
,,,,,,,,,,
,,,,,,,,,,
,,,,,,,,,,
,,,,,,,,,,
,,,,,,,,,,
,,,,,,,,,,
,,,,,,,,,,
,,,,,,,,,,
,,,,,,,,,,
,,,,,,,,,,
,,,,,,,,,,
,,,,,,,,,,
,,,,,,,,,,
,,,,,,,,,,
,,,,,,,,,,
,,,,,,,,,,
,,,,,,,,,,
,,,,,,,,,,
,,,,,,,,,,
,,,,,,,,,,
,,,,,,,,,,
,,,,,,,,,,
,,,,,,,,,,
,,,,,,,,,,
,,,,,,,,,,
,,,,,,,,,,
,,,,,,,,,,
,,,,,,,,,,
,,,,,,,,,,
,,,,,,,,,,
,,,,,,,,,,
,,,,,,,,,,
,,,,,,,,,,
,,,,,,,,,,
,,,,,,,,,,
,,,,,,,,,,
,,,,,,,,,,
,,,,,,,,,,
,,,,,,,,,,
,,,,,,,,,,
,,,,,,,,,,
,,,,,,,,,,
,,,,,,,,,,
,,,,,,,,,,
,,,,,,,,,,
,,,,,,,,,,
,,,,,,,,,,
,,,,,,,,,,
,,,,,,,,,,
,,,,,,,,,,
,,,,,,,,,,
,,,,,,,,,,
,,,,,,,,,,
,,,,,,,,,,
,,,,,,,,,,
,,,,,,,,,,
,,,,,,,,,,
,,,,,,,,,,
,,,,,,,,,,
,,,,,,,,,,
,,,,,,,,,,
,,,,,,,,,,
,,,,,,,,,,
,,,,,,,,,,
,,,,,,,,,,
,,,,,,,,,,
,,,,,,,,,,
,,,,,,,,,,
