Data Set,Variable,Label,Type,Length,Format,Codelist Name,Origin,Derivation / Comments / Predecessor,Notes,XL Comments,
ADTTE,STUDYID,Study Identifier,Char,20,$20.,,Predecessor,ADSL.STUDYID,,,
ADTTE,USUBJID,Unique Subject Identifier,Char,16,$16.,,Predecessor,ADSL.USUBJID,,,
,ADSL_CORE,ADSL core variables are carried through all ADaM Datasets. See Core Variable column on the ADSL specs for variables kept on all ADaM datasets,,,,,,,,,
ADTTE,DTHUNFDT,"Date of Death, Unfiltered",Num,8,date9.,,Derived,ADSL.DTHUNFDT,,,
ADTTE,ASEQ,Analysis Sequence Number,Num,8,best20.,,Derived,"After sorting dataset by the KEYS, set to 1 for the first record per subject, then incremented by 1 for each subsequent record.",,,
ADTTE,SRCDOM,Source Data,Char,8,$8.,SRCDTTE,Assigned,Set to 'ADEFFINT',,,
ADTTE,SRCVAR,Source Variable,Char,8,$8.,SRCVTTE,Assigned,Set to 'ADT',,,
ADTTE,SRCSEQ,Source Sequence Number,Num,8,best20.,,Assigned,"Set to ASEQ from the record in ADEFFINT used to populate ADT.
For PARAMCD = 'DORIVR', which is based on ADTTE.PARAMCD = 'PFSIVR', the values of SRCSEQ are carried forward from the PFSIVR record.",,,
ADTTE,PARAMN,Parameter (N),Num,8,best20.,PARTTE_N,Assigned,"Assigned as the numeric version of PARAMCD, as per the codelist",,,
ADTTE,PARAMCD,Parameter Code,Char,8,$8.,PARTTE,Assigned,See VLM for assignments.,,,
ADTTE,PARAM,Parameter,Char,100,$100.,PARTTE_C,Assigned,"Assigned as the decoded version of PARAMCD, as per the codelist",,,
ADTTE,AVAL,Analysis Value,Num,8,best20.,,Derived,"If PARAMCD in (PSARTTE) then AVAL=(ADTTE.ADT-ADTTE.STARTDT+1)/7
Otherwise AVAL=(ADTTE.ADT - ADTTE.STARTDT + 1)/30.4375
",,"XW 2/14/2025: Time to PSA progression still use month, only PSA response use week. ",
ADTTE,STARTDT,Time-to-Event Origin Date for Subject,Num,8,date9.,,Assigned,See VLM for assignments.,,,
ADTTE,ADT,Analysis Date,Num,8,date9.,,Assigned,See VLM for assignments.,,,
ADTTE,CNSR,Censor,Num,8,best20.,<see VLM>,Assigned,See VLM for assignments.,,,
ADTTE,EVNTDESC,Event or Censoring Description,Char,100,$100.,<see VLM>,Assigned,See VLM for assignments.,,,
ADTTE,CNSDTDSC,Censor Date Description,Char,100,$100.,<see VLM>,Assigned,See VLM for assignments.,,,
ADTTE,CRIT1FL,Criterion 1 Evaluation Result Flag,Char,1,$1.,,Derived,"If CRIT1 is non-missing, then set to 'Y'.",,,
ADTTE,CRIT1,Analysis Criterion 1,Char,30,$30.,,Assigned,"For PARAMCD = 'DORIVR': if AVAL >= 3 then set to "">= 3 months"".
Otherwise, null.",,,
ADTTE,CRIT2FL,Criterion 2 Evaluation Result Flag,Char,1,$1.,,Derived,"If CRIT2 is non-missing, then set to 'Y'.",,,
ADTTE,CRIT2,Analysis Criterion 2,Char,30,$30.,,Assigned,"For PARAMCD = 'DORIVR': if AVAL >= 6 then set to "">= 6 months"".
Otherwise, null.",,,
ADTTE,CRIT3FL,Criterion 3 Evaluation Result Flag,Char,1,$1.,,Derived,"If CRIT3 is non-missing, then set to 'Y'.",,,
ADTTE,CRIT3,Analysis Criterion 3,Char,50,$50.,,Assigned,"For PARAMCD = 'DORIVR': if AVAL >= 12 then set to "">= 12 months"".
Otherwise, null.",,,
ADTTE,CRIT4FL,Criterion 4 Evaluation Result Flag,Char,1,$1.,,Derived,"If CRIT4 is non-missing, set to 'Y'.",,,
ADTTE,CRIT4,Analysis Criterion 4,Char,50,$50.,,Assigned,"For PARAMCD = 'DORIVR': if AVAL >= 18 then set to "">= 18 months"".
Otherwise, null.",,,
ADTTE,CRIT5FL,Criterion 5 Evaluation Result Flag,Char,1,$1.,,Derived,"If CRIT5 is non-missing, set to 'Y'.",,,
ADTTE,CRIT5,Analysis Criterion 5,Char,50,$50.,,Assigned,"For PARAMCD = 'DORIVR': if AVAL >= 24 then set to "">= 24 months"".
Otherwise, null.",,,
,,,,,,,,,,,
,,,,,,,,,,,
,,,,,,,,,,,
,,,,,,,,,,,
,,,,,,,,,,,
,,,,,,,,,,,
,,,,,,,,,,,
,,,,,,,,,,,
,,,,,,,,,,,
,,,,,,,,,,,
,,,,,,,,,,,
,,,,,,,,,,,
,,,,,,,,,,,
,,,,,,,,,,,
,,,,,,,,,,,
,,,,,,,,,,,
,,,,,,,,,,,
,,,,,,,,,,,
,,,,,,,,,,,
,,,,,,,,,,,
,,,,,,,,,,,
,,,,,,,,,,,
,,,,,,,,,,,
,,,,,,,,,,,
,,,,,,,,,,,
,,,,,,,,,,,
,,,,,,,,,,,
,,,,,,,,,,,
,,,,,,,,,,,
,,,,,,,,,,,
,,,,,,,,,,,
,,,,,,,,,,,
,,,,,,,,,,,
,,,,,,,,,,,
,,,,,,,,,,,
,,,,,,,,,,,
,,,,,,,,,,,
,,,,,,,,,,,
,,,,,,,,,,,
,,,,,,,,,,,
,,,,,,,,,,,
,,,,,,,,,,,
,,,,,,,,,,,
,,,,,,,,,,,
,,,,,,,,,,,
,,,,,,,,,,,
,,,,,,,,,,,
,,,,,,,,,,,
,,,,,,,,,,,
,,,,,,,,,,,
,,,,,,,,,,,
,,,,,,,,,,,
,,,,,,,,,,,
,,,,,,,,,,,
,,,,,,,,,,,
,,,,,,,,,,,
,,,,,,,,,,,
,,,,,,,,,,,
,,,,,,,,,,,
,,,,,,,,,,,
,,,,,,,,,,,
,,,,,,,,,,,
,,,,,,,,,,,
,,,,,,,,,,,
,,,,,,,,,,,
,,,,,,,,,,,
,,,,,,,,,,,
,,,,,,,,,,,
,,,,,,,,,,,
,,,,,,,,,,,
,,,,,,,,,,,
,,,,,,,,,,,
,,,,,,,,,,,
,,,,,,,,,,,
,,,,,,,,,,,
