Data Set,Variable,Label,Type,Length,Format,Codelist Name,Origin,Derivation / Comments / Predecessor,Notes,XL Comments,
ADVS,STUDYID,Study Identifier,Char,20,$20.,,Predecessor,ADSL.STUDYID,,,
ADVS,USUBJID,Unique Subject Identifier,Char,16,$16.,,Predecessor,ADSL.USUBJID,,,
,ADSL_CORE,ADSL core variables are carried through all ADaM Datasets. See Core Variable column on the ADSL specs for variables kept on all ADaM datasets,,,,,,,,,
ADVS,ASEQ,Analysis Sequence Number,Num,8,best20.,,Derived,"After sorting dataset by the KEYS, set to 1 for the first record per subject, then incremented by 1 for each subsequent record.",,,
ADVS,VSSEQ,Source Sequence Number,Num,8,best20.,,Predecessor,VS.VSSEQ,,,
ADVS,VSTESTCD,Vital SignsTest Short Name,Char,8,$8.,,Predecessor,VS.VSTESTCD,,,
ADVS,VSTEST,Vital Signs Test Name,Char,50,$50.,,Predecessor,VS.VSTEST,,,
ADVS,VSSTRESC,Character Result/Finding in Std Format,Char,200,$200.,,Predecessor,VS.VSSTRESC,,,
ADVS,VSSTRESN,Numeric Result/Finding in Standard Units,Num,8,best20.,,Predecessor,VS.VSSTRESN,,,
ADVS,VSSTRESU,Standard Units,Char,20,$20.,,Predecessor,VS.VSSTRESU,,,
ADVS,VISITNUM,Visit Number,Num,8,best20.,,Predecessor,VS.VISITNUM,,,
ADVS,VISIT,Visit Name,Char,75,$75.,,Predecessor,VS.VISIT,,,
ADVS,VSDTC,Date/Time of Measurements,Char,19,$19.,,Predecessor,VS.VSDTC,,,
ADVS,VSDY,Study Day of Vital Signs,Num,8,best20.,,Predecessor,VS.VSDY,,,
ADVS,VSTPT,Planned Time Point Name,Char,75,$75.,,Predecessor,VS.VSTPT,,,
ADVS,VSTPTNUM,Planned Time Point Number,Num,8,best20.,,Predecessor,VS.VSTPTNUM,,,
ADVS,VSCLSIG,"Clinically Significant, Collected",Char,20,$20.,,Predecessor,VS.VSCLSIG,,,
ADVS,ADT,Analysis Date,Num,8,date9.,,Derived,Set to numeric version of date part of VS.VSDTC. No imputation.,,,
ADVS,ATM,Analysis Time,Num,8,time5.,,Derived,Set to numeric version of time part of VS.VSDTC. No imputation.,,,
ADVS,ADY,Analysis Relative Day,Num,8,best20.,,Derived,"Set to ADT-TRTSDT+1 if ADT >= TRTSDT and both date variables are non-missing,
else set to ADT-TRTSDT if ADT < TRTSDT and both date variables are non-missing.
Null if ADSL.TRTSDT is null.",,,
ADVS,AVISIT,Analysis Visit,Char,75,$75.,,Assigned,"For records copied directly from VS domain, set to VS.VISIT in proper-case.",,,
ADVS,AVISITN,Analysis Visit (N),Num,8,best20.,,Assigned,"For records copied directly from VS domain, set to VS.VISITNUM",,,
ADVS,ATPT,Analysis Timepoint,Char,75,$75.,,Assigned,Set to VS.VSTPT,,,
ADVS,ATPTN,Analysis Timepoint (N),Num,8,best20.,,Assigned,Set to VS.VSTPTNUM,,,
ADVS,PARAM,Parameter,Char,100,$100.,,Assigned,Set to VS.VSTEST with VS.VSSTRESU  concatenated and enclosed in parentheses. If VS.VSSTRESU is missing then populate with standard unit for the parameter.,,,
ADVS,PARAMCD,Parameter Code,Char,8,$8.,,Assigned,Set to VS.VSTESTCD,,,
ADVS,PARAMN,Parameter (N),Num,8,best20.,,Assigned,"Assigned based on PARAMCD, as per the codelist",,,
ADVS,AVAL,Analysis Value,Num,8,best20.,,Assigned,Set to VS.VSSTRESN,,,
ADVS,ABLFL,Baseline Record Flag,Char,1,$1.,,Derived,"Set to 'Y' on last record with non-missing AVAL per USUBJID PARAMCD where (ADT=TRTSDT and ADT not missing and ATM<TRTSTM and ATM not = missing) or
(ADT=TRTSDT and ADT not missing and ATM is missing and ATPT = 'Pre-dose') or
(ADT<TRTSDT and ADT not missing) when sorting by USUBJID PARAMCD ADT ATM.  ",,,
ADVS,PSBLFL,Post-Baseline Record Flag,Char,1,$1.,,Derived,"Set to 'Y' on all records with non-missing AVAL per USUBJID PARAMCD where (ADT=TRTSDT and ADT not missing and ATM>=TRTSTM and TRTSTM not = missing) or
(ADT=TRTSDT and ADT not missing and ATM is missing and ATPT contains 'Post') or
(ADT>TRTSDT and TRTSDT not missing).",,,
ADVS,BASE,Baseline Value,Num,8,best20.,,Derived,Set to AVAL where ABLFL='Y' per USUBJID PARAMCD.,,,
ADVS,CHG,Change from Baseline,Num,8,best20.,,Derived,Set to AVAL-BASE where PSBLFL='Y'.,,,
ADVS,PCHG,Percent Change from Baseline,Num,8,best20.,,Derived,Set to (CHG/BASE)*100 where PSBLFL='Y' if BASE is not missing and non-zero.,,,
ADVS,CRIT1,Analysis Criterion 1,Char,50,$50.,,Derived,If VS.VSCLSIG = 'Y' then set to 'Clinically Significant',,,
ADVS,CRIT1FL,Criterion 1 Evaluation Result Flag,Char,1,$1.,,Assigned,Set to 'Y' if CRIT1 non-missing,,,
ADVS,CRIT2,Analysis Criterion 2,Char,50,$50.,,Derived,See VLM tab.,,,
ADVS,CRIT2FL,Criterion 2 Evaluation Result Flag,Char,1,$1.,,Assigned,Set to 'Y' if CRIT2 non-missing,,,
ADVS,CRIT3,Analysis Criterion 3,Char,50,$50.,,Derived,See VLM tab.,,,
ADVS,CRIT3FL,Criterion 3 Evaluation Result Flag,Char,1,$1.,,Assigned,Set to 'Y' if CRIT3 non-missing,,,
ADVS,ANL01FL,Analysis Flag 01 (Scheduled Visits),Char,1,$1.,,Derived,"Set to 'Y' on last record per USUBJID PARAMCD AVISITN ATPT where PSBLFL='Y' and AVAL not missing when sorting by USUBJID PARAMCD AVISITN ATPT ADT ATM VSSEQ.
Null if it's unscheduled visit.",,,
